File: CLIMA/IO/compare_w_benjamin/FTIR.dat
   20        89.064
   907.5        145750
   2298.5        179669
   8582.5        179723
   305        26914.7
   1237.5        181616
   3592.5        186281
   11545        186281
   581        94859.4
   1700        189572
   5647.5        191479
   20        90.715
   907.5        155326
   2298.5        195554
   8582.5        195645
   305        27520.1
   1237.5        193655
   3592.5        198995
   11545        198995
   581        97129.6
   1700        199471
   5647.5        201668
   20        91.6301
   907.5        160169
   2298.5        203674
   8582.5        203791
   305        27882.1
   1237.5        199766
   3592.5        205511
   11545        205512
   581        98400.9
   1700        204512
   5647.5        206869
   20        92.1299
   907.5        162652
   2298.5        207842
   8582.5        207974
   305        28085.1
   1237.5        202872
   3592.5        208845
   11545        208846
   581        99096.3
   1700        207107
   5647.5        209548
   20        92.3799
   907.5        163936
   2298.5        209979
   8582.5        210120
   305        28193.5
   1237.5        204475
   3592.5        210574
   11545        210575
   581        99457.2
   1700        208461
   5647.5        210945
   20        92.5027
   907.5        164620
   2298.5        211088
   8582.5        211232
   305        28258.5
   1237.5        205299
   3592.5        211467
   11545        211468
   581        99637.6
   1700        209134
   5647.5        211636
   20        92.5609
   907.5        164973
   2298.5        211634
   8582.5        211780
   305        28293.3
   1237.5        205688
   3592.5        211891
   11545        211891
   581        99728.9
   1700        209469
   5647.5        211978
   20        92.5867
   907.5        165159
   2298.5        211898
   8582.5        212045
   305        28315.5
   1237.5        205874
   3592.5        212095
   11545        212095
   581        99767.2
   1700        209623
   5647.5        212132
   20        92.5943
   907.5        165257
   2298.5        212016
   8582.5        212162
   305        28329.3
   1237.5        205953
   3592.5        212184
   11545        212185
   581        99785.6
   1700        209694
   5647.5        212201
   20        92.6012
   907.5        165323
   2298.5        212075
   8582.5        212221
   305        28345.5
   1237.5        205991
   3592.5        212230
   11545        212230
   581        99801.7
   1700        209731
   5647.5        212235
   20        92.6034
   907.5        165362
   2298.5        212091
   8582.5        212236
   305        28356.9
   1237.5        205991
   3592.5        212235
   11545        212235
   581        99806.4
   1700        209733
   5647.5        212232
   20        92.6028
   907.5        165386
   2298.5        212083
   8582.5        212228
   305        28369.5
   1237.5        205979
   3592.5        212228
   11545        212228
   581        99813
   1700        209728
   5647.5        212222
   20        92.6066
   907.5        165408
   2298.5        212070
   8582.5        212215
   305        28380.5
   1237.5        205954
   3592.5        212206
   11545        212206
   581        99813.8
   1700        209707
   5647.5        212197
   20        92.6058
   907.5        165420
   2298.5        212044
   8582.5        212188
   305        28391.9
   1237.5        205928
   3592.5        212183
   11545        212183
   581        99817.4
   1700        209689
   5647.5        212174
   20        92.6087
   907.5        165434
   2298.5        212021
   8582.5        212164
   305        28402.1
   1237.5        205896
   3592.5        212153
   11545        212154
   581        99817.3
   1700        209663
   5647.5        212143
   20        92.6102
   907.5        165444
   2298.5        211994
   8582.5        212136
   305        28413.3
   1237.5        205866
   3592.5        212127
   11545        212127
   581        99820.1
   1700        209641
   5647.5        212116
   20        92.6123
   907.5        165454
   2298.5        211966
   8582.5        212108
   305        28424
   1237.5        205835
   3592.5        212099
   11545        212099
   581        99822.5
   1700        209618
   5647.5        212088
   20        92.6142
   907.5        165463
   2298.5        211939
   8582.5        212080
   305        28434.9
   1237.5        205806
   3592.5        212072
   11545        212072
   581        99826.8
   1700        209598
   5647.5        212064
   20        92.6181
   907.5        165473
   2298.5        211914
   8582.5        212055
   305        28446.2
   1237.5        205777
   3592.5        212046
   11545        212046
   581        99830.1
   1700        209575
   5647.5        212037
   20        92.6208
   907.5        165481
   2298.5        211887
   8582.5        212028
   305        28456.6
   1237.5        205747
   3592.5        212018
   11545        212019
   581        99832.7
   1700        209554
   5647.5        212011
   20        92.6296
   907.5        165497
   2298.5        211871
   8582.5        212011
   305        28471.7
   1237.5        205725
   3592.5        212001
   11545        212001
   581        99843.2
   1700        209539
   5647.5        211992
   20        92.633
   907.5        165503
   2298.5        211842
   8582.5        211982
   305        28482.3
   1237.5        205694
   3592.5        211972
   11545        211972
   581        99846.2
   1700        209514
   5647.5        211963
   20        92.6357
   907.5        165508
   2298.5        211815
   8582.5        211953
   305        28491.8
   1237.5        205664
   3592.5        211945
   11545        211945
   581        99854.5
   1700        209498
   5647.5        211943
   20        92.6433
   907.5        165520
   2298.5        211795
   8582.5        211933
   305        28505.9
   1237.5        205639
   3592.5        211924
   11545        211924
   581        99857.9
   1700        209474
   5647.5        211914
   20        92.6461
   907.5        165524
   2298.5        211767
   8582.5        211905
   305        28515.7
   1237.5        205609
   3592.5        211895
   11545        211896
   581        99860.1
   1700        209450
   5647.5        211887
   20        92.6524
   907.5        165534
   2298.5        211747
   8582.5        211884
   305        28528.1
   1237.5        205585
   3592.5        211875
   11545        211875
   581        99868.7
   1700        209433
   5647.5        211866
   20        92.6552
   907.5        165538
   2298.5        211720
   8582.5        211857
   305        28536.9
   1237.5        205555
   3592.5        211848
   11545        211848
   581        99875.5
   1700        209416
   5647.5        211845
   20        92.6607
   907.5        165546
   2298.5        211699
   8582.5        211836
   305        28549.2
   1237.5        205531
   3592.5        211827
   11545        211827
   581        99877.5
   1700        209392
   5647.5        211817
   20        92.6655
   907.5        165552
   2298.5        211678
   8582.5        211814
   305        28560.1
   1237.5        205507
   3592.5        211805
   11545        211805
   581        99883.5
   1700        209374
   5647.5        211795
   20        92.6699
   907.5        165558
   2298.5        211656
   8582.5        211792
   305        28569.3
   1237.5        205480
   3592.5        211781
   11545        211781
   581        99892.5
   1700        209359
   5647.5        211777
   20        92.6727
   907.5        165562
   2298.5        211632
   8582.5        211767
   305        28575.4
   1237.5        205449
   3592.5        211752
   11545        211752
   581        99879.1
   1700        209321
   5647.5        211736
   20        92.6595
   907.5        165546
   2298.5        211589
   8582.5        211724
   305        28571.7
   1237.5        205411
   3592.5        211714
   11545        211714
   581        99869
   1700        209295
   5647.5        211706
   20        92.5939
   907.5        165459
   2298.5        211470
   8582.5        211604
   305        28561.6
   1237.5        205386
   3592.5        211689
   11545        211689
   581        99898.4
   1700        209332
   5647.5        211741
   20        92.6257
   907.5        165514
   2298.5        211516
   8582.5        211650
   305        28547.3
   1237.5        205334
   3592.5        211635
   11545        211635
   581        99808.8
   1700        209223
   5647.5        211628
   20        92.6045
   907.5        165501
   2298.5        211491
   8582.5        211625
   305        28541.3
   1237.5        205321
   3592.5        211623
   11545        211623
   581        99800.9
   1700        209219
   5647.5        211622
   20        92.598
   907.5        165508
   2298.5        211488
   8582.5        211622
   305        28543.1
   1237.5        205317
   3592.5        211622
   11545        211622
   581        99719.4
   1700        209130
   5647.5        211530
   20        92.585
   907.5        165508
   2298.5        211484
   8582.5        211618
   305        28526.3
   1237.5        205294
   3592.5        211598
   11545        211598
   581        99762
   1700        209191
   5647.5        211590
   20        92.5606
   907.5        165488
   2298.5        211453
   8582.5        211587
   305        28520.1
   1237.5        205281
   3592.5        211586
   11545        211586
   581        99754.9
   1700        209189
   5647.5        211585
   20        92.5541
   907.5        165494
   2298.5        211452
   8582.5        211586
   305        28521.7
   1237.5        205279
   3592.5        211586
   11545        211586
   581        99674.3
   1700        209100
   5647.5        211494
   20        92.5217
   907.5        165443
   2298.5        211376
   8582.5        211509
   305        28496
   1237.5        205206
   3592.5        211503
   11545        211503
   581        99683.4
   1700        209115
   5647.5        211506
   20        92.5015
   907.5        165442
   2298.5        211379
   8582.5        211512
   305        28491
   1237.5        205219
   3592.5        211518
   11545        211518
   581        99681.1
   1700        209133
   5647.5        211524
   20        92.4964
   907.5        165457
   2298.5        211396
   8582.5        211529
   305        28444
   1237.5        205147
   3592.5        211436
   11545        211436
   581        99630.7
   1700        209080
   5647.5        211467
   20        92.4581
   907.5        165410
   2298.5        211336
   8582.5        211469
   305        28467.7
   1237.5        205183
   3592.5        211475
   11545        211475
   581        99619.2
   1700        209097
   5647.5        211483
   20        92.4496
   907.5        165425
   2298.5        211358
   8582.5        211491
   305        28467.4
   1237.5        205203
   3592.5        211498
   11545        211498
   581        99621.9
   1700        209118
   5647.5        211504
   20        92.389
   907.5        165358
   2298.5        211282
   8582.5        211415
   305        28452.4
   1237.5        205159
   3592.5        211447
   11545        211447
   581        99517.4
   1700        209000
   5647.5        211380
   20        92.4164
   907.5        165378
   2298.5        211286
   8582.5        211419
   305        28449.9
   1237.5        205101
   3592.5        211372
   11545        211372
   581        99391.8
   1700        208872
   5647.5        211246
   20        92.3495
   907.5        165293
   2298.5        211186
   8582.5        211318
   305        28413.6
   1237.5        205048
   3592.5        211299
   11545        211299
   581        99377.9
   1700        208917
   5647.5        211289
   20        92.3005
   907.5        165264
   2298.5        211164
   8582.5        211296
   305        28386.5
   1237.5        205076
   3592.5        211319
   11545        211319
   581        99359.1
   1700        208967
   5647.5        211341
   20        92.237
   907.5        165228
   2298.5        211149
   8582.5        211281
   305        28380
   1237.5        205161
   3592.5        211412
   11545        211412
   581        99373.9
   1700        209047
   5647.5        211423
   20        92.2889
   907.5        165343
   2298.5        211300
   8582.5        211432
   305        28378.1
   1237.5        205191
   3592.5        211445
   11545        211446
   581        99303.6
   1700        208992
   5647.5        211366
   20        92.2877
   907.5        165369
   2298.5        211341
   8582.5        211473
   305        28378.6
   1237.5        205219
   3592.5        211477
   11545        211478
   581        99310.9
   1700        209019
   5647.5        211394
   20        92.2261
   907.5        165300
   2298.5        211264
   8582.5        211397
   305        28373.9
   1237.5        205237
   3592.5        211497
   11545        211497
   581        99304.3
   1700        209033
   5647.5        211408
   20        92.2165
   907.5        165307
   2298.5        211278
   8582.5        211410
   305        28369.8
   1237.5        205246
   3592.5        211507
   11545        211507
   581        99298.9
   1700        209042
   5647.5        211416
   20        92.2071
   907.5        165309
   2298.5        211283
   8582.5        211416
   305        28322.4
   1237.5        205168
   3592.5        211419
   11545        211419
   581        99365
   1700        209139
   5647.5        211514
   20        92.1992
   907.5        165312
   2298.5        211288
   8582.5        211421
   305        28319
   1237.5        205167
   3592.5        211418
   11545        211419
   581        99278
   1700        209048
   5647.5        211421
   20        92.1832
   907.5        165308
   2298.5        211290
   8582.5        211423
   305        28354.7
   1237.5        205254
   3592.5        211517
   11545        211517
   581        99274.2
   1700        209049
   5647.5        211421
   20        92.1742
   907.5        165304
   2298.5        211285
   8582.5        211418
   305        28307.5
   1237.5        205167
   3592.5        211419
   11545        211419
   581        99258.4
   1700        209048
   5647.5        211420
   20        92.1595
   907.5        165300
   2298.5        211288
   8582.5        211421
   305        28344
   1237.5        205252
   3592.5        211516
   11545        211516
   581        99253.6
   1700        209046
   5647.5        211417
   20        92.1504
   907.5        165295
   2298.5        211281
   8582.5        211413
   305        28296.3
   1237.5        205163
   3592.5        211414
   11545        211414
   581        99237.9
   1700        209045
   5647.5        211415
   20        92.195
   907.5        165374
   2298.5        211379
   8582.5        211511
   305        28294
   1237.5        205159
   3592.5        211411
   11545        211411
   581        99238.4
   1700        209049
   5647.5        211419
   20        92.1305
   907.5        165292
   2298.5        211285
   8582.5        211418
   305        28286.8
   1237.5        205165
   3592.5        211417
   11545        211417
   581        99308.1
   1700        209142
   5647.5        211513
   20        92.1226
   907.5        165286
   2298.5        211279
   8582.5        211411
   305        28283.6
   1237.5        205155
   3592.5        211407
   11545        211408
   581        99216.3
   1700        209039
   5647.5        211408
   20        92.1071
   907.5        165278
   2298.5        211276
   8582.5        211409
   305        28320.8
   1237.5        205243
   3592.5        211507
   11545        211507
   581        99211.4
   1700        209036
   5647.5        211404
   20        92.0986
   907.5        165272
   2298.5        211269
   8582.5        211402
   305        28272.5
   1237.5        205152
   3592.5        211403
   11545        211403
   581        99196.7
   1700        209036
   5647.5        211404
   20        92.0851
   907.5        165268
   2298.5        211273
   8582.5        211405
   305        28310.7
   1237.5        205242
   3592.5        211505
   11545        211505
   581        99192.2
   1700        209034
   5647.5        211401
   20        92.0767
   907.5        165262
   2298.5        211266
   8582.5        211399
   305        28262
   1237.5        205150
   3592.5        211400
   11545        211400
   581        99178.2
   1700        209035
   5647.5        211402
   20        92.1245
   907.5        165345
   2298.5        211370
   8582.5        211503
   305        28259.7
   1237.5        205147
   3592.5        211397
   11545        211397
   581        99171.5
   1700        209029
   5647.5        211396
   20        92.0552
   907.5        165253
   2298.5        211265
   8582.5        211398
   305        28251.6
   1237.5        205149
   3592.5        211399
   11545        211399
   581        99247.8
   1700        209134
   5647.5        211502
   20        92.0482
   907.5        165249
   2298.5        211262
   8582.5        211395
   305        28248.7
   1237.5        205144
   3592.5        211393
   11545        211394
   581        99153.7
   1700        209030
   5647.5        211396
   20        92.0344
   907.5        165244
   2298.5        211265
   8582.5        211398
   305        28287.9
   1237.5        205239
   3592.5        211501
   11545        211501
   581        99149.4
   1700        209028
   5647.5        211393
   20        92.0265
   907.5        165238
   2298.5        211259
   8582.5        211392
   305        28238.4
   1237.5        205146
   3592.5        211394
   11545        211395
   581        99136.6
   1700        209031
   5647.5        211397
   20        92.0767
   907.5        165325
   2298.5        211368
   8582.5        211501
   305        28236
   1237.5        205143
   3592.5        211392
   11545        211392
   581        99130.2
   1700        209027
   5647.5        211391
   20        92.0064
   907.5        165230
   2298.5        211261
   8582.5        211394
   305        28228.2
   1237.5        205148
   3592.5        211396
   11545        211396
   581        99209.9
   1700        209135
   5647.5        211502
   20        91.9999
   907.5        165226
   2298.5        211259
   8582.5        211392
   305        28225.3
   1237.5        205143
   3592.5        211391
   11545        211391
   581        99113.6
   1700        209029
   5647.5        211394
   20        92.0465
   907.5        165304
   2298.5        211356
   8582.5        211490
   305        28221.1
   1237.5        205134
   3592.5        211380
   11545        211381
   581        99108.2
   1700        209029
   5647.5        211393
   20        91.9761
   907.5        165210
   2298.5        211252
   8582.5        211385
   305        28213.6
   1237.5        205144
   3592.5        211389
   11545        211389
   581        99182.8
   1700        209132
   5647.5        211498
   20        91.9702
   907.5        165208
   2298.5        211254
   8582.5        211387
   305        28210.8
   1237.5        205142
   3592.5        211388
   11545        211388
   581        99085.9
   1700        209027
   5647.5        211391
   20        92.022
   907.5        165297
   2298.5        211367
   8582.5        211500
   305        28208.3
   1237.5        205142
   3592.5        211388
   11545        211388
   581        99080.2
   1700        209025
   5647.5        211389
   20        91.9508
   907.5        165201
   2298.5        211259
   8582.5        211392
   305        28200.8
   1237.5        205151
   3592.5        211395
   11545        211395
   581        99163.7
   1700        209140
   5647.5        211506
   20        91.9447
   907.5        165197
   2298.5        211258
   8582.5        211391
   305        28197.8
   1237.5        205147
   3592.5        211391
   11545        211391
   581        99064.9
   1700        209031
   5647.5        211395
   20        91.9975
   907.5        165287
   2298.5        211372
   8582.5        211506
   305        28195.1
   1237.5        205146
   3592.5        211390
   11545        211391
   581        99059.1
   1700        209028
   5647.5        211391
   20        91.9254
   907.5        165188
   2298.5        211261
   8582.5        211395
   305        28236.3
   1237.5        205249
   3592.5        211506
   11545        211506
   581        99055
   1700        209028
   5647.5        211391
   20        91.9185
   907.5        165183
   2298.5        211258
   8582.5        211392
   305        28184.5
   1237.5        205152
   3592.5        211395
   11545        211395
   581        99138.4
   1700        209142
   5647.5        211508
   20        91.9125
   907.5        165180
   2298.5        211258
   8582.5        211391
   305        28181.4
   1237.5        205150
   3592.5        211392
   11545        211392
   581        99038.4
   1700        209033
   5647.5        211396
   20        91.9667
   907.5        165272
   2298.5        211376
   8582.5        211510
   305        28178.6
   1237.5        205150
   3592.5        211392
   11545        211392
   581        99032.7
   1700        209030
   5647.5        211394
   20        91.8939
   907.5        165172
   2298.5        211264
   8582.5        211398
   305        28220.7
   1237.5        205255
   3592.5        211512
   11545        211512
   581        99028.7
   1700        209030
   5647.5        211393
   20        91.8871
   907.5        165167
   2298.5        211261
   8582.5        211395
   305        28168
   1237.5        205157
   3592.5        211399
   11545        211399
   581        99114.6
   1700        209148
   5647.5        211514
   20        91.8813
   907.5        165163
   2298.5        211261
   8582.5        211395
   305        28164.9
   1237.5        205155
   3592.5        211396
   11545        211396
   581        99012.7
   1700        209037
   5647.5        211401
   20        91.9373
   907.5        165258
   2298.5        211383
   8582.5        211517
   305        28162
   1237.5        205155
   3592.5        211396
   11545        211396
   581        99007.1
   1700        209035
   5647.5        211398
   20        91.8633
   907.5        165156
   2298.5        211268
   8582.5        211402
   305        28205.2
   1237.5        205264
   3592.5        211519
   11545        211519
   581        99003.1
   1700        209034
   5647.5        211398
   20        91.8567
   907.5        165151
   2298.5        211266
   8582.5        211400
   305        28201.8
   1237.5        205262
   3592.5        211517
   11545        211517
   581        98997.5
   1700        209033
   5647.5        211396
   20        91.8501
   907.5        165146
   2298.5        211264
   8582.5        211399
   305        28148.2
   1237.5        205164
   3592.5        211403
   11545        211403
   581        99086.5
   1700        209156
   5647.5        211522
   20        91.8445
   907.5        165143
   2298.5        211265
   8582.5        211399
   305        28145
   1237.5        205163
   3592.5        211401
   11545        211402
   581        99081.1
   1700        209155
   5647.5        211521
   20        91.838
   907.5        165138
   2298.5        211264
   8582.5        211398
   305        28141.7
   1237.5        205163
   3592.5        211401
   11545        211401
   581        98977.1
   1700        209042
   5647.5        211406
   20        91.8962
   907.5        165238
   2298.5        211392
   8582.5        211526
   305        28138.7
   1237.5        205164
   3592.5        211402
   11545        211402
   581        98971.8
   1700        209041
   5647.5        211405
   20        91.8898
   907.5        165233
   2298.5        211391
   8582.5        211525
   305        28135.4
   1237.5        205164
   3592.5        211401
   11545        211401
   581        98966.5
   1700        209041
   5647.5        211404
   20        91.8144
   907.5        165129
   2298.5        211275
   8582.5        211410
   305        28180.1
   1237.5        205279
   3592.5        211531
   11545        211531
   581        99063
   1700        209156
   5647.5        211522
   20        91.8133
   907.5        165122
   2298.5        211264
   8582.5        211398
   305        28128.1
   1237.5        205162
   3592.5        211399
   11545        211399
   581        98956
   1700        209042
   5647.5        211406
   20        91.8019
   907.5        165122
   2298.5        211277
   8582.5        211411
   305        28173.5
   1237.5        205282
   3592.5        211534
   11545        211534
   581        99053.4
   1700        209158
   5647.5        211524
   20        91.8008
   907.5        165115
   2298.5        211265
   8582.5        211400
   305        28121.3
   1237.5        205166
   3592.5        211401
   11545        211401
   581        98945.9
   1700        209044
   5647.5        211408
   20        91.7897
   907.5        165115
   2298.5        211280
   8582.5        211414
   305        28167
   1237.5        205287
   3592.5        211538
   11545        211538
   581        99044.2
   1700        209162
   5647.5        211528
   20        91.7886
   907.5        165108
   2298.5        211268
   8582.5        211403
   305        28114.4
   1237.5        205169
   3592.5        211404
   11545        211404
   581        98936.1
   1700        209047
   5647.5        211411
   20        91.7776
   907.5        165109
   2298.5        211283
   8582.5        211417
   305        28159.1
   1237.5        205282
   3592.5        211531
   11545        211532
   581        99027.6
   1700        209157
   5647.5        211523
   20        91.7729
   907.5        165095
   2298.5        211263
   8582.5        211398
   305        28106.2
   1237.5        205169
   3592.5        211402
   11545        211402
   581        98920
   1700        209046
   5647.5        211410
   20        91.8341
   907.5        165202
   2298.5        211402
   8582.5        211537
   305        28103.2
   1237.5        205176
   3592.5        211409
   11545        211410
   581        98916
   1700        209050
   5647.5        211415
   20        91.8288
   907.5        165201
   2298.5        211406
   8582.5        211541
   305        28100
   1237.5        205180
   3592.5        211413
   11545        211413
   581        98911.5
   1700        209052
   5647.5        211417
   20        91.8234
   907.5        165198
   2298.5        211409
   8582.5        211544
   305        28096.6
   1237.5        205183
   3592.5        211415
   11545        211415
   581        98906.9
   1700        209054
   5647.5        211420
   20        91.8179
   907.5        165196
   2298.5        211412
   8582.5        211547
   305        28093.2
   1237.5        205185
   3592.5        211417
   11545        211417
   581        98902.2
   1700        209056
   5647.5        211422
   20        91.8126
   907.5        165194
   2298.5        211415
   8582.5        211550
   305        28143
   1237.5        205292
   3592.5        211540
   11545        211540
   581        98902
   1700        209046
   5647.5        211411
   20        91.7374
   907.5        165079
   2298.5        211279
   8582.5        211414
   305        28085.8
   1237.5        205191
   3592.5        211422
   11545        211422
   581        98998.6
   1700        209183
   5647.5        211552
   20        91.7326
   907.5        165079
   2298.5        211285
   8582.5        211420
   305        28082.4
   1237.5        205194
   3592.5        211425
   11545        211425
   581        98994.6
   1700        209187
   5647.5        211555
   20        91.7998
   907.5        165182
   2298.5        211410
   8582.5        211545
   305        28082.7
   1237.5        205184
   3592.5        211415
   11545        211415
   581        98885.4
   1700        209053
   5647.5        211418
   20        91.7207
   907.5        165073
   2298.5        211291
   8582.5        211427
   305        28129.6
   1237.5        205311
   3592.5        211557
   11545        211557
   581        98988.6
   1700        209179
   5647.5        211548
   20        91.7197
   907.5        165067
   2298.5        211282
   8582.5        211417
   305        28074.8
   1237.5        205191
   3592.5        211421
   11545        211421
   581        98876.9
   1700        209063
   5647.5        211429
   20        91.7835
   907.5        165178
   2298.5        211425
   8582.5        211560
   305        28126
   1237.5        205305
   3592.5        211551
   11545        211551
   581        98876.7
   1700        209053
   5647.5        211419
   20        91.7073
   907.5        165062
   2298.5        211288
   8582.5        211423
   305        28067.9
   1237.5        205203
   3592.5        211432
   11545        211432
   581        98976.1
   1700        209195
   5647.5        211564
   20        91.7765
   907.5        165169
   2298.5        211419
   8582.5        211554
   305        28068
   1237.5        205193
   3592.5        211422
   11545        211422
   581        98865.4
   1700        209060
   5647.5        211426
   20        91.6967
   907.5        165060
   2298.5        211299
   8582.5        211435
   305        28115.9
   1237.5        205322
   3592.5        211568
   11545        211568
   581        98970.5
   1700        209189
   5647.5        211558
   20        91.6957
   907.5        165053
   2298.5        211289
   8582.5        211425
   305        28060.3
   1237.5        205201
   3592.5        211429
   11545        211429
   581        98857.3
   1700        209070
   5647.5        211438
   20        91.7611
   907.5        165166
   2298.5        211436
   8582.5        211572
   305        28112.4
   1237.5        205317
   3592.5        211562
   11545        211562
   581        98856.9
   1700        209061
   5647.5        211428
   20        91.6838
   907.5        165048
   2298.5        211296
   8582.5        211432
   305        28108.5
   1237.5        205322
   3592.5        211567
   11545        211567
   581        98851.4
   1700        209065
   5647.5        211432
   20        91.6787
   907.5        165048
   2298.5        211303
   8582.5        211439
   305        28105.6
   1237.5        205330
   3592.5        211574
   11545        211574
   581        98956.6
   1700        209194
   5647.5        211564
   20        91.6778
   907.5        165042
   2298.5        211294
   8582.5        211430
   305        28049.3
   1237.5        205208
   3592.5        211435
   11545        211435
   581        98951.5
   1700        209200
   5647.5        211571
   20        91.672
   907.5        165041
   2298.5        211299
   8582.5        211435
   305        28045.9
   1237.5        205216
   3592.5        211442
   11545        211442
   581        98948.8
   1700        209208
   5647.5        211579
   20        91.7426
   907.5        165150
   2298.5        211433
   8582.5        211569
   305        28045.9
   1237.5        205207
   3592.5        211433
   11545        211433
   581        98835.5
   1700        209070
   5647.5        211439
   20        91.737
   907.5        165150
   2298.5        211439
   8582.5        211575
   305        28097.7
   1237.5        205324
   3592.5        211566
   11545        211566
   581        98835.2
   1700        209064
   5647.5        211432
   20        91.6591
   907.5        165032
   2298.5        211302
   8582.5        211438
   305        28036.9
   1237.5        205213
   3592.5        211437
   11545        211437
   581        98932.5
   1700        209205
   5647.5        211577
   20        91.7278
   907.5        165139
   2298.5        211432
   8582.5        211568
   305        28036.8
   1237.5        205208
   3592.5        211432
   11545        211432
   581        98819.1
   1700        209071
   5647.5        211439
   20        91.7229
   907.5        165140
   2298.5        211442
   8582.5        211579
   305        28089.4
   1237.5        205329
   3592.5        211570
   11545        211570
   581        98819.1
   1700        209066
   5647.5        211434
   20        91.6445
   907.5        165023
   2298.5        211305
   8582.5        211441
   305        28085.9
   1237.5        205340
   3592.5        211581
   11545        211581
   581        98925.9
   1700        209201
   5647.5        211572
   20        91.6437
   907.5        165019
   2298.5        211300
   8582.5        211436
   305        28028.8
   1237.5        205220
   3592.5        211443
   11545        211443
   581        98922.3
   1700        209211
   5647.5        211583
   20        91.7149
   907.5        165131
   2298.5        211438
   8582.5        211574
   305        28028.5
   1237.5        205215
   3592.5        211438
   11545        211438
   581        98808.3
   1700        209076
   5647.5        211445
   20        91.7101
   907.5        165133
   2298.5        211449
   8582.5        211585
   305        28081.3
   1237.5        205336
   3592.5        211577
   11545        211577
   581        98808.2
   1700        209071
   5647.5        211440
   20        91.6314
   907.5        165015
   2298.5        211311
   8582.5        211448
   14735        211448